Folder: SAXS-material-data

Note: README.md
# SAXS-material-data

>> INTRODUCTION TO THE SAXS MATERIAL DATABASE

The files in this repository are small-angle x-ray scattering (SAXS) cross section data of materials obtained with a laboratory SAXS system.

>> FORMAT

Each individual file contains a header section with relevant material information (eg. material, thickness, density, concentration for colloids) and a SAXS instrument section that details the energy of the x-ray source, wavelength, sample-to-detector distance, and exposure time used to obtain the data contained in the file.

Below the header is tab-delimited data, organized into two columns. The data is in the format of intensity, I(q) vs. scattering vector, q.
All data is on the absolute scale with I(q) units of cm^-1 and q units of A^-1.
The first column contains values for q. The second column contains values for I(q).

>> REFERENCE

A full study detailing the motivation for this work, the methods for obtaining the data, and implications and potential applications can be found in the cited:

Alam, N., Choi, M., Ghammraoui, B., Dahal, E., & Badano, A. (2017). Small-angle x-ray scattering cross-section measurements of imaging materials. Biomedical Physics & Engineering Express, 3(2), 025023. doi:10.1088/2057-1976/aa6720

File: data-flx9070.txt
MATERIAL INFORMATION
	Material = Flx9070
	Thickness = 1 mm
SAXS INSTRUMENT
	Source = Cu K-alpha
	Wavelength = 1.5418 A
	Sample-to-detector distance = 106 mm
	Exposure time = 60 s

===============================================================
q (A^-1)	I(q)
===============================================================
0.00171434	-0.000522614
0.00908246	0.094624
0.0164506	0.0229982
0.0238187	0.0144579
0.0311868	0.0100286
0.0385548	-0.0134073
0.0459228	-0.00702093
0.0532908	-0.00409391
0.0606587	0.00758263
0.0680266	0.041938
0.0753945	0.086508
0.0827623	0.108164
0.09013		0.115931
0.0974976	0.12469
0.104865	0.108601
0.112233	0.0950848
0.1196		0.115528
0.126967	0.0978583
0.134334	0.089998
0.141701	0.0886344
0.149068	0.0943482
0.156435	0.0903914
0.163802	0.0910111
0.171169	0.0898439
0.178535	0.101155
0.185901	0.099957
0.193267	0.0972991
0.200633	0.0899996
0.207999	0.103758
0.215365	0.110887
0.22273		0.105771
0.230096	0.119148
0.237461	0.106828
0.244826	0.1129
0.25219		0.109039
0.259555	0.110312
0.266919	0.115832
0.274283	0.131423
0.281647	0.132657
0.289011	0.140852
0.296374	0.145032
0.303737	0.131903
0.3111		0.139018
0.318462	0.148541
0.325825	0.150986
0.333187	0.139756
0.340549	0.155238
0.34791		0.159444
0.355272	0.151097
0.362633	0.154671
0.369993	0.150424
0.377354	0.157717
0.384714	0.14888
0.392073	0.154129
0.399433	0.158546
0.406792	0.149673
0.414151	0.14682
0.421509	0.15066
0.428867	0.148198
0.436225	0.145718
0.443582	0.149336
0.450939	0.13802
0.458296	0.141285
0.465652	0.138453
0.473008	0.133596
0.480364	0.129954
0.487719	0.130576
0.495074	0.1283
0.502428	0.130404
0.509782	0.126747
0.517135	0.124165
0.524488	0.119165
0.531841	0.120571
0.539193	0.115238
0.546545	0.11411
0.553896	0.116679
0.561247	0.10803
0.568597	0.116076
0.575947	0.111046
0.583297	0.112921
0.590646	0.105417
0.597994	0.103699
0.605342	0.103561
0.61269		0.102233
0.620037	0.107452
0.627383	0.0992329
0.634729	0.107776
0.642075	0.0998782
0.64942		0.10438
0.656764	0.105364
0.664108	0.100256
0.671452	0.10242
0.678794	0.106364
0.686137	0.107114
0.693478	0.110779
0.700819	0.105693
0.70816		0.103026
0.7155		0.105462
0.722839	0.0968307
0.730178	0.105522
0.737516	0.103552
0.744854	0.109338
0.752191	0.10955
0.759527	0.114905
0.766863	0.107604
0.774198	0.104048
0.781533	0.11853
0.788866	0.113358
0.7962	0.112816
0.803532	0.112454
0.810864	0.117135
0.818195	0.119397
0.825526	0.112711
0.832856	0.11638
0.840185	0.122984
0.847514	0.114859
0.854841	0.125618
0.862168	0.124253
0.869495	0.125841
0.876821	0.126914
0.884146	0.127045
0.89147	0.130429
0.898794	0.133322
0.906116	0.134038
0.913438	0.135851
0.92076	0.14137
0.92808	0.14918
0.9354	0.14581
0.942719	0.141687
0.950037	0.150719
0.957355	0.150038
0.964672	0.152761
0.971988	0.163153
0.979303	0.158822
0.986617	0.165573
0.993931	0.163542
1.00124	0.163359
1.00855	0.183151
1.01587	0.174324
1.02318	0.185713
1.03049	0.180765
1.0378	0.185767
1.0451	0.187844
1.05241	0.195138
1.05972	0.193938
1.06702	0.207151
1.07433	0.201063
1.08163	0.207841
1.08893	0.210416
1.09623	0.216159
1.10353	0.220743
1.11083	0.225839
1.11813	0.228559
1.12543	0.231739
1.13273	0.230871
1.14002	0.242243
1.14732	0.241969
1.15461	0.24277
1.16191	0.245839
1.1692	0.25209
1.17649	0.255851
1.18378	0.25556
1.19107	0.25498
1.19836	0.257215
1.20565	0.257416
1.21293	0.266377
1.22022	0.263073
1.2275	0.271425
1.23479	0.277951
1.24207	0.269522
1.24935	0.275791
1.25663	0.278443
1.26391	0.279777
1.27119	0.281127
1.27847	0.276664
1.28574	0.281379
1.29302	0.281718
1.30029	0.280378
1.30756	0.281812
1.31484	0.276793
1.32211	0.280681
1.32938	0.276686
1.33665	0.280096
1.34392	0.278908
1.35118	0.274887
1.35845	0.268582
1.36571	0.274962
1.37297	0.268608
1.38024	0.261945
1.3875	0.263349
1.39476	0.263423
1.40202	0.267298
1.40928	0.259216
1.41653	0.252962
1.42379	0.250133
1.43104	0.252184
1.43829	0.24371
1.44555	0.241626
1.4528	0.242253
1.46005	0.231653
1.4673	0.230505
1.47454	0.227465
1.48179	0.219156
1.48903	0.223661
1.49628	0.215877
1.50352	0.210086
1.51076	0.204475
1.518	0.202374
1.52524	0.194985
1.53248	0.197006
1.53971	0.190219
1.54695	0.184518
1.55418	0.187679
1.56141	0.178788
1.56864	0.177825
1.57587	0.17597
1.5831	0.166778
1.59033	0.165367
1.59755	0.169922
1.60478	0.163375
1.612	0.156831
1.61922	0.153837
1.62644	0.149538
1.63366	0.144424
1.64088	0.138444
1.6481	0.14345
1.65531	0.139513
1.66253	0.132551
1.66974	0.125679
1.67695	0.125523
1.68416	0.127058
1.69137	0.12154
1.69858	0.123142
1.70578	0.117714
1.71299	0.118308
1.72019	0.11552
1.72739	0.103822
1.73459	0.107775
1.74179	0.104617
1.74899	0.101136
1.75618	0.0982735
1.76338	0.09664
1.77057	0.0972556
1.77776	0.0883227
1.78495	0.0917014
1.79214	0.0969918
1.79933	0.0910751
1.80651	0.0909638
1.8137	0.0923425
1.82088	0.0796
1.82806	0.0839321
1.83524	0.0707073
1.84242	0.0748268
1.8496	0.084816
1.85677	0.0705844
1.86394	0.049868
1.86514	0.0536663

File: data-flx9095.txt
MATERIAL INFORMATION
	Material = Flx9095
	Thickness = 1 mm
SAXS INSTRUMENT
	Source = Cu K-alpha
	Wavelength = 1.5418 A
	Sample-to-detector distance = 106 mm
	Exposure time = 60 s

===============================================================
q (A^-1)	I(q)
===============================================================
0.00171434	-0.00192394
0.00908246	0.0541349
0.0164506	0.0446539
0.0238187	0.0033327
0.0311868	0.0285171
0.0385548	-0.0106904
0.0459228	-0.0077703
0.0532908	0.00235437
0.0606587	0.00684118
0.0680266	0.0443358
0.0753945	0.0852369
0.0827623	0.108211
0.09013	0.106652
0.0974976	0.109269
0.104865	0.0937651
0.112233	0.109788
0.1196	0.100901
0.126967	0.101517
0.134334	0.0907505
0.141701	0.0917299
0.149068	0.0942873
0.156435	0.0960582
0.163802	0.089538
0.171169	0.089956
0.178535	0.0891932
0.185901	0.0855337
0.193267	0.0905063
0.200633	0.092162
0.207999	0.096073
0.215365	0.0992104
0.22273	0.0909485
0.230096	0.0973151
0.237461	0.0954692
0.244826	0.109062
0.25219	0.109578
0.259555	0.108426
0.266919	0.106848
0.274283	0.11761
0.281647	0.125761
0.289011	0.119869
0.296374	0.131391
0.303737	0.125684
0.3111	0.131831
0.318462	0.134554
0.325825	0.134027
0.333187	0.137864
0.340549	0.140445
0.34791	0.137232
0.355272	0.137097
0.362633	0.142877
0.369993	0.145389
0.377354	0.14579
0.384714	0.147126
0.392073	0.140779
0.399433	0.148789
0.406792	0.143224
0.414151	0.145842
0.421509	0.143933
0.428867	0.140243
0.436225	0.132335
0.443582	0.14035
0.450939	0.143277
0.458296	0.141606
0.465652	0.135306
0.473008	0.122394
0.480364	0.126566
0.487719	0.125999
0.495074	0.129391
0.502428	0.116077
0.509782	0.12177
0.517135	0.121301
0.524488	0.117506
0.531841	0.116874
0.539193	0.110281
0.546545	0.106505
0.553896	0.114755
0.561247	0.105097
0.568597	0.106726
0.575947	0.112556
0.583297	0.101402
0.590646	0.106535
0.597994	0.110136
0.605342	0.116183
0.61269	0.0993579
0.620037	0.106932
0.627383	0.096424
0.634729	0.102335
0.642075	0.105752
0.64942	0.103777
0.656764	0.101171
0.664108	0.0997366
0.671452	0.101621
0.678794	0.108829
0.686137	0.106083
0.693478	0.103842
0.700819	0.107714
0.70816	0.102453
0.7155	0.101359
0.722839	0.104005
0.730178	0.112507
0.737516	0.107146
0.744854	0.107086
0.752191	0.106339
0.759527	0.114557
0.766863	0.11075
0.774198	0.112824
0.781533	0.114376
0.788866	0.11384
0.7962	0.11277
0.803532	0.117249
0.810864	0.118336
0.818195	0.123846
0.825526	0.118338
0.832856	0.128218
0.840185	0.124038
0.847514	0.124199
0.854841	0.128198
0.862168	0.129193
0.869495	0.128678
0.876821	0.134163
0.884146	0.130219
0.89147	0.13639
0.898794	0.141884
0.906116	0.138928
0.913438	0.140564
0.92076	0.14382
0.92808	0.144911
0.9354	0.150277
0.942719	0.156794
0.950037	0.158042
0.957355	0.160964
0.964672	0.167937
0.971988	0.176845
0.979303	0.172017
0.986617	0.173559
0.993931	0.176322
1.00124	0.177618
1.00855	0.185061
1.01587	0.189173
1.02318	0.19526
1.03049	0.193115
1.0378	0.20466
1.0451	0.204269
1.05241	0.203427
1.05972	0.208514
1.06702	0.208993
1.07433	0.216946
1.08163	0.22364
1.08893	0.223541
1.09623	0.230729
1.10353	0.237092
1.11083	0.242088
1.11813	0.243368
1.12543	0.250423
1.13273	0.247598
1.14002	0.252658
1.14732	0.256482
1.15461	0.261755
1.16191	0.263898
1.1692	0.267879
1.17649	0.272393
1.18378	0.276126
1.19107	0.277255
1.19836	0.274221
1.20565	0.276406
1.21293	0.27906
1.22022	0.278572
1.2275	0.286041
1.23479	0.287902
1.24207	0.283833
1.24935	0.284896
1.25663	0.292123
1.26391	0.28659
1.27119	0.289694
1.27847	0.288749
1.28574	0.285889
1.29302	0.288272
1.30029	0.281315
1.30756	0.284792
1.31484	0.284621
1.32211	0.278516
1.32938	0.279324
1.33665	0.277513
1.34392	0.285545
1.35118	0.27247
1.35845	0.270398
1.36571	0.263315
1.37297	0.264257
1.38024	0.266203
1.3875	0.258268
1.39476	0.257891
1.40202	0.258524
1.40928	0.252802
1.41653	0.24695
1.42379	0.244609
1.43104	0.244758
1.43829	0.237764
1.44555	0.230008
1.4528	0.225973
1.46005	0.22381
1.4673	0.221157
1.47454	0.219563
1.48179	0.214483
1.48903	0.215239
1.49628	0.20945
1.50352	0.200579
1.51076	0.198147
1.518	0.199308
1.52524	0.193993
1.53248	0.190786
1.53971	0.186395
1.54695	0.180674
1.55418	0.180765
1.56141	0.172456
1.56864	0.170594
1.57587	0.166079
1.5831	0.162962
1.59033	0.16318
1.59755	0.161521
1.60478	0.155336
1.612	0.152219
1.61922	0.137531
1.62644	0.14703
1.63366	0.140778
1.64088	0.134079
1.6481	0.13792
1.65531	0.13688
1.66253	0.132894
1.66974	0.128498
1.67695	0.120768
1.68416	0.123619
1.69137	0.124107
1.69858	0.118434
1.70578	0.111407
1.71299	0.114449
1.72019	0.115433
1.72739	0.109599
1.73459	0.107261
1.74179	0.106725
1.74899	0.0994606
1.75618	0.103231
1.76338	0.0950514
1.77057	0.0913705
1.77776	0.0853377
1.78495	0.0863075
1.79214	0.0824106
1.79933	0.0784352
1.80651	0.0848168
1.8137	0.080552
1.82088	0.0829161
1.82806	0.0832636
1.83524	0.0756662
1.84242	0.0702699
1.8496	0.0782608
1.85677	0.0741927
1.86394	0.0682283
1.86514	0.0633008

File: data-hydroxyapatite.txt
MATERIAL INFORMATION
	Material = Hydroxyapatite (powder)
SAXS INSTRUMENT
	Source = Cu K-alpha
	Wavelength = 1.5418 A
	Sample-to-detector distance = 106 mm
	Exposure time = 500 s

===============================================================
q (A^-1)	I(q)
===============================================================
0.00178309	-0.0796673
0.00914837	-0.151686
0.0165136	-0.0127732
0.0238789	0.0793282
0.0312441	-6.13037
0.0386094	0.353709
0.0459745	0.157036
0.0533397	0.207342
0.0607048	0.188736
0.0680698	0.131572
0.0754348	0.102153
0.0827998	0.078219
0.0901646	0.0764845
0.0975294	0.0592855
0.104894	0.0419386
0.112259	0.0423436
0.119623	0.039703
0.126988	0.0282474
0.134352	0.031226
0.141716	0.0202489
0.14908		0.0251014
0.156444	0.0185803
0.163808	0.0175165
0.171172	0.0116964
0.178536	0.0160974
0.185899	0.00979128
0.193262	0.0124362
0.200625	0.0111856
0.207988	0.0133412
0.215351	0.010813
0.222714	0.0090342
0.230076	0.00837432
0.237439	0.008316
0.244801	0.00703944
0.252162	0.00721224
0.259524	0.00677268
0.266886	0.00612576
0.274247	0.00761076
0.281608	0.00564084
0.288969	0.0043362
0.296329	0.00763236
0.303689	0.00553716
0.311049	0.00367956
0.318409	0.00451764
0.325769	0.0034452
0.333128	0.00216756
0.340487	0.0033318
0.347846	0.00440424
0.355204	0.0053946
0.362562	0.0032508
0.36992		0.00160704
0.377278	0.0036936
0.384635	0.00271512
0.391992	-0.0018684
0.399348	0.006723
0.406705	0.00472392
0.414061	0.003591
0.421416	0.00472068
0.428771	0.00186732
0.436126	0.00411048
0.443481	0.00273564
0.450835	0.00236088
0.458189	0.00335448
0.465542	0.00265032
0.472895	0.00327888
0.480248	0.00209952
0.4876		0.00427896
0.494952	0.0007776
0.502304	0.00216108
0.509655	0.0050328
0.517006	0.00368496
0.524356	0.00233388
0.531705	0.00357264
0.539055	0.00310824
0.546404	0.0019656
0.553752	0.00301644
0.5611		0.00224748
0.568448	0.00281664
0.575795	-0.003672
0.583142	0.00333504
0.590488	0.00096228
0.597834	0.0004752
0.605179	0.00310284
0.612524	0.00105732
0.619868	0.0009342
0.627211	0.00301104
0.634555	0.00251316
0.641897	0.00226908
0.649239	0.00312984
0.656581	0.0006912
0.663922	0.00034452
0.671263	0.00218268
0.678603	0.00111132
0.685942	0.00277992
0.693281	0.00237384
0.700619	0.0016632
0.707957	0.0023328
0.715294	0.0031968
0.722631	0.00158976
0.729967	0.00312228
0.737302	0.00194616
0.744637	0.00375084
0.751971	0.00422928
0.759305	0.0126058
0.766637	0.0160142
0.77397		0.0137657
0.781301	0.0070038
0.788633	0.00380592
0.795963	0.00391932
0.803293	0.00296892
0.810622	0.0022788
0.81795		0.00301752
0.825278	0.00200016
0.832605	0.00351648
0.839931	0.00185112
0.847257	0.00243756
0.854582	0.00368388
0.861907	0.00219888
0.86923		0.00246672
0.876553	0.00227556
0.883875	0.00348084
0.891197	0.00216756
0.898517	0.00121716
0.905837	0.00104112
0.913157	0.00153576
0.920475	0.00148176
0.927793	0.00134784
0.93511		0.00242892
0.942426	0.00259524
0.949742	0.0006102
0.957057	0.00130464
0.964371	0.00177984
0.971684	0.00182196
0.978996	0.00102708
0.986308	0.0025866
0.993618	0.002538
1.00093		0.00263952
1.00824		0.00168696
1.01555		0.00305208
1.02285		0.00128088
1.03016		0.00085212
1.03747		0.00202824
1.04477		0.00084456
1.05207		0.00105084
1.05938		0.00117396
1.06668		0.00125928
1.07398		0.00113076
1.08128		0.00032508
1.08858		0.00106812
1.09588		0.00157464
1.10318		0.0016848
1.11048		0.00265356
1.11777		0.0019008
1.12507		0.00102276
1.13236		5.616e-05
1.13965		0.00104328
1.14695		4.644e-05
1.15424		0.000243
1.16153		0.0022194
1.16882		0.00108216
1.17611		0.00149472
1.1834		0.00262656
1.19068		0.00274968
1.19797		0.00379296
1.20525		0.00276912
1.21254		-0.00046332
1.21982		0.00035424
1.2271		0.00143424
1.23438		0.00132408
1.24166		-0.0002214
1.24894	-0.00054432
1.25622	0.00047412
1.2635	0.0014634
1.27077	-0.00047412
1.27805	-0.00675108
1.28532	0.00132732
1.29259	0.00085212
1.29986	0.00059292
1.30713	0.00020088
1.3144	0.00203256
1.32167	0.00037152
1.32894	0.00148608
1.33621	0.00159084
1.34347	0.00243216
1.35073	0.00058212
1.358	0.00110592
1.36526	8.64e-06
1.37252	-0.0006696
1.37978	0.0085212
1.38704	0.00069336
1.3943	0.0004806
1.40155	0.00118368
1.40881	0.0005076
1.41606	0.00122364
1.42331	4.104e-05
1.43056	0.0016902
1.43781	-0.00083052
1.44506	0.0020088
1.45231	0.00046008
1.45956	0.0016038
1.4668	0.0011286
1.47405	-0.00565812
1.48129	0.0005724
1.48853	0.00048276
1.49578	0.00021276
1.50301	5.724e-05
1.51025	0.00095364
1.51749	0.00159192
1.52472	0.00301644
1.53196	0.00505764
1.53919	0.00443556
1.54643	0.00205632
1.55366	0.00074088
1.56089	0.00041688
1.56811	0.0023112
1.57534	0.0020412
1.58257	0.00070956
1.58979	0.001836
1.59702	0.00114696
1.60424	0.00518724
1.61146	0.00674784
1.61868	0.00617004
1.62589	0.0030672
1.63311	0.00215028
1.64033	0.00205416
1.64754	0.00197748
1.65475	0.00241164
1.66196	0.0018252
1.66917	0.00111672
1.67638	0.00179496
1.68359	0.00056052
1.6908	0.0005184
1.698	0.0008208
1.7052	0.001107
1.7124	0.00142776
1.7196	0.00167616
1.7268	0.00153036
1.734	0.00131976
1.7412	0.00177444
1.74839	0.00089316
1.75558	0.00986148
1.76278	0.00234036
1.76997	0.0025974
1.77716	0.00236952
1.78434	0.00549504
1.79153	0.00500688
1.79871	0.00349272
1.8059	0.00543888
1.81308	0.00927072
1.82026	0.0289861
1.82743	0.0323438
1.83461	0.0169711
1.84179	0.00531576
1.84896	0.00797148
1.85613	0.0016362
1.86331	-0.00964548
1.8645	-0.005589

File: data-parchment-25iod.txt
MATERIAL INFORMATION
	Material = 25% iodine on King Arthur parchment
	Thickness = 0.006 mm
SAXS INSTRUMENT
	Source = Cu K-alpha
	Wavelength = 1.5418 A
	Sample-to-detector distance = 106 mm
	Exposure time = 500 s

===============================================================
q (A^-1)	I(q)
===============================================================
0.00203935	12.5117
0.00947059	-5.95476
0.0169018	-0.0782892
0.0243331	-1.19181
0.0317643	-5.28706
0.0391954	0.199513
0.0466266	0.234977
0.0540577	0.701971
0.0614887	1.31709
0.0689197	1.51939
0.0763507	1.2417
0.0837816	1.30084
0.0912124	1.06826
0.0986431	0.784672
0.106074	0.956249
0.113504	0.289248
0.120935	0.40658
0.128365	0.401227
0.135796	0.801166
0.143226	0.513685
0.150656	0.732258
0.158086	0.57252
0.165515	0.34941
0.172945	0.502183
0.180374	0.378313
0.187804	0.222654
0.195233	0.266256
0.202662	0.295464
0.210091	0.244321
0.21752	-0.11162
0.224948	0.605225
0.232376	0.231649
0.239805	0.177679
0.247233	0.453954
0.25466	0.0420262
0.262088	0.0984878
0.269515	0.274785
0.276942	0.269959
0.284369	0.148695
0.291796	0.152256
0.299222	0.194955
0.306648	0.0804298
0.314074	0.0715793
0.321499	0.0880267
0.328925	0.00630353
0.33635	0.16267
0.343775	0.112693
0.351199	-0.0435663
0.358623	0.169595
0.366047	0.157457
0.373471	0.0223875
0.380894	0.11237
0.388317	0.222388
0.39574	0.186176
0.403162	-0.0468944
0.410584	-0.135369
0.418006	-0.0667633
0.425427	0.019818
0.432848	0.0818155
0.440269	-0.0425385
0.447689	0.117012
0.455108	-0.0794295
0.462528	0.0409893
0.469947	-0.116641
0.477366	0.119878
0.484784	0.0821173
0.492202	0.0491373
0.499619	-0.0613842
0.507037	0.0121503
0.514453	0.372207
0.521869	0.0357914
0.529285	0.139648
0.5367	-0.113579
0.544115	0.011389
0.55153	0.0901177
0.558944	0.0941255
0.566357	-0.152968
0.57377	-0.111607
0.581183	-0.112452
0.588595	-0.0756699
0.596007	-0.00729986
0.603418	0.102697
0.610828	0.0246651
0.618238	-0.0908548
0.625648	0.15477
0.633057	0.00749259
0.640466	-0.000682643
0.647873	-0.0526261
0.655281	0.156352
0.662688	-0.0143431
0.670094	-0.00290862
0.6775	-0.0177074
0.684905	-0.0923077
0.69231	0.0713228
0.699714	0.273373
0.707118	0.0918869
0.714521	-0.401093
0.721923	-0.00434336
0.729325	0.168151
0.736726	0.0540144
0.744126	0.0986219
0.751526	0.0726578
0.758925	0.0529675
0.766324	0.135921
0.773722	0.127325
0.781119	0.106688
0.788516	0.0518763
0.795912	0.135274
0.803308	0.02545
0.810702	0.0288805
0.818096	0.233039
0.82549	0.0123968
0.832882	0.149103
0.840274	0.00950378
0.847666	0.16495
0.855056	0.0866074
0.862446	0.163494
0.869835	0.15974
0.877224	0.00949471
0.884612	0.223711
0.891999	0.419596
0.899385	0.304085
0.90677	0.0942307
0.914155	0.131267
0.921539	0.106767
0.928922	0.238627
0.936305	0.113913
0.943686	0.192718
0.951067	0.12153
0.958447	0.234834
0.965827	0.0275228
0.973205	0.274606
0.980583	0.255914
0.98796	0.437573
0.995336	0.300211
1.00271	0.530071
1.01008	0.24821
1.01746	0.361855
1.02483	0.31816
1.0322	0.276829
1.03957	0.383697
1.04694	0.350122
1.05431	0.366987
1.06168	0.432487
1.06905	0.285368
1.07642	0.183822
1.08378	0.365993
1.09115	0.320227
1.09851	0.351147
1.10587	0.399664
1.11324	0.409097
1.1206	0.42167
1.12796	0.412456
1.13532	0.472185
1.14267	0.459785
1.15003	0.419076
1.15739	0.349937
1.16474	0.414625
1.1721	0.282503
1.17945	0.351229
1.1868	0.487455
1.19416	0.254373
1.20151	0.258363
1.20886	0.231867
1.2162	0.251411
1.22355	0.338624
1.2309	0.201153
1.23824	0.294073
1.24559	0.252226
1.25293	0.154673
1.26027	0.0911834
1.26762	0.137884
1.27496	0.153265
1.2823	0.320451
1.28963	0.185611
1.29697	0.161782
1.30431	0.350701
1.31164	0.196538
1.31898	0.20099
1.32631	0.0502937
1.33364	0.214801
1.34097	0.318899
1.3483	0.153018
1.35563	0.210645
1.36295	0.264781
1.37028	0.292832
1.37761	0.296526
1.38493	0.316534
1.39225	0.393859
1.39957	0.511231
1.40689	0.409105
1.41421	0.478175
1.42153	0.491276
1.42885	0.456841
1.43616	0.433583
1.44348	0.483702
1.45079	0.583774
1.4581	0.568342
1.46541	0.551413
1.47272	0.503094
1.48003	0.413659
1.48734	0.560576
1.49464	0.477931
1.50195	0.520378
1.50925	0.601983
1.51655	0.461543
1.52386	0.581557
1.53116	0.656958
1.53845	0.667046
1.54575	0.74912
1.55305	0.78918
1.56034	0.749015
1.56763	0.881708
1.57492	0.878199
1.58222	0.80152
1.5895	0.868219
1.59679	0.850467
1.60408	0.81884
1.61136	0.699236
1.61865	0.686129
1.62593	0.229566
1.63321	0.569587
1.64049	0.5613
1.64777	0.482882
1.65505	0.64133
1.66232	0.363169
1.6696	0.322373
1.67687	0.269663
1.68414	0.301111
1.69141	0.186349
1.69868	-0.0887068
1.70595	0.295403
1.71321	0.197073
1.72048	0.303324
1.72774	0.212838
1.735	0.155884
1.74226	0.238427
1.74952	0.180492
1.75678	0.136011
1.76404	0.103569
1.77129	0.0656935
1.77854	0.0620663
1.78579	0.102056
1.79305	0.0769585
1.80029	0.171465
1.80754	-0.0247234
1.81479	-0.12141
1.82203	0.0769132
1.82927	0.0461654
1.83651	0.102632
1.84375	-0.027689
1.85099	0.107897
1.85823	0.0987506
1.86546	0.185317
1.87269	-0.432199
1.87752	0.211482