Folder: SAXS-material-data (part 3)

File: data-whewellite.txt
MATERIAL INFORMATION
	Material = Whewellite (powder)
SAXS INSTRUMENT
	Source = Cu K-alpha
	Wavelength = 1.5418 A
	Sample-to-detector distance = 106 mm
	Exposure time = 500 s

===============================================================
q (A^-1)	I(q)
===============================================================
0.00178309	0.525511
0.00914837	0.379936
0.0165136	0.175754
0.0238789	-0.0933239
0.0312441	13.885
0.0386094	0.445542
0.0459745	0.15073
0.0533397	0.0581504
0.0607048	0.033817
0.0680698	0.0239533
0.0754348	0.0146534
0.0827998	0.0154159
0.0901646	0.0183287
0.0975294	0.0064368
0.104894	-0.00120852
0.112259	-0.00071928
0.119623	0.006426
0.126988	-0.00387828
0.134352	-0.00195264
0.141716	0.00168588
0.14908	0.0048816
0.156444	0.0023058
0.163808	-0.00013392
0.171172	-0.00243
0.178536	0.00396468
0.185899	0.00114048
0.193262	0.00151092
0.200625	-0.00070848
0.207988	0.00113832
0.215351	-0.00446472
0.222714	0.00050976
0.230076	0.00039744
0.237439	-0.00093852
0.244801	-0.0006426
0.252162	-0.00122796
0.259524	0.00474876
0.266886	0.0014904
0.274247	-0.0001836
0.281608	0.00131436
0.288969	0.00145584
0.296329	0.00340416
0.303689	-0.00017928
0.311049	0.00202068
0.318409	-0.00053892
0.325769	0.00126684
0.333128	0.0010422
0.340487	0.0005076
0.347846	0.00200124
0.355204	0.002781
0.362562	0.00086184
0.36992	0.0012258
0.377278	0.00137484
0.384635	0.00081756
0.391992	-0.00803412
0.399348	0.0033372
0.406705	0.00511488
0.414061	0.00031752
0.421416	0.0029214
0.428771	0.00231444
0.436126	-0.00124092
0.443481	0.0027054
0.450835	-9.828e-05
0.458189	0.00179388
0.465542	-0.0004968
0.472895	0.00164808
0.480248	-0.00194616
0.4876	0.00187596
0.494952	-0.00041796
0.502304	0.00269244
0.509655	-0.0005292
0.517006	0.00337392
0.524356	0.00101196
0.531705	-0.00071172
0.539055	0.00330264
0.546404	-0.00101304
0.553752	0.00142776
0.5611	-0.00052056
0.568448	0.00016092
0.575795	-0.00625752
0.583142	-0.00101952
0.590488	-0.00017712
0.597834	-0.00154872
0.605179	0.00183708
0.612524	-0.0006156
0.619868	-0.0011178
0.627211	-0.00107676
0.634555	0.00029268
0.641897	-0.00104652
0.649239	-0.00123876
0.656581	0.00012744
0.663922	-0.00021924
0.671263	-0.0017226
0.678603	-0.00171288
0.685942	5.4e-05
0.693281	-0.0006048
0.700619	-0.00086616
0.707957	-0.00143208
0.715294	0.00159408
0.722631	-0.0012204
0.729967	8.748e-05
0.737302	-0.00115884
0.744637	-0.00040716
0.751971	-0.00108
0.759305	-0.00027108
0.766637	-0.00024624
0.77397	-0.00231228
0.781301	0.00092232
0.788633	-0.00045036
0.795963	0.00012636
0.803293	8.856e-05
0.810622	-0.00088236
0.81795	-1.728e-05
0.825278	-0.00132948
0.832605	0.00069228
0.839931	-0.00021492
0.847257	-0.0009342
0.854582	-0.00020736
0.861907	-0.00202932
0.86923	0.00040068
0.876553	-0.00157356
0.883875	0.00062856
0.891197	0.00022788
0.898517	-0.00021708
0.905837	-0.00081432
0.913157	-0.0009936
0.920475	-0.00059832
0.927793	0.00093852
0.93511	0.0005454
0.942426	-0.0003132
0.949742	-0.00124524
0.957057	-0.00067716
0.964371	0.00075276
0.971684	-0.0001458
0.978996	-0.00216216
0.986308	0.00094176
0.993618	0.0016092
1.00093	9.612e-05
1.00824	0.00036504
1.01555	0.00143532
1.02285	-0.00074304
1.03016	0.0021276
1.03747	0.00507276
1.04477	0.0067392
1.05207	0.0213646
1.05938	0.0178654
1.06668	0.0235386
1.07398	0.00788184
1.08128	0.0100948
1.08858	0.00825444
1.09588	0.00265356
1.10318	0.00246888
1.11048	0.0016686
1.11777	0.00247428
1.12507	0.00027648
1.13236	0.00051732
1.13965	0.00158868
1.14695	0.00077436
1.15424	0.00026892
1.16153	0.00195048
1.16882	0.000378
1.17611	0.0017172
1.1834	-0.00141912
1.19068	0.00027648
1.19797	0.00099684
1.20525	0.00139104
1.21254	0.00051732
1.21982	0.00147528
1.2271	0.00165672
1.23438	0.0017712
1.24166	0.00143316
1.24894	0.00108216
1.25622	0.00117396
1.2635	0.0005346
1.27077	0.0006048
1.27805	0.0016848
1.28532	0.00101628
1.29259	0.00082188
1.29986	-0.00078516
1.30713	0.00091476
1.3144	0.00128628
1.32167	0.00156276
1.32894	0.00117504
1.33621	0.00302076
1.34347	0.00111024
1.35073	0.00049572
1.358	0.00145476
1.36526	0.00249156
1.37252	0.00160272
1.37978	0.00083916
1.38704	0.00348516
1.3943	0.0026406
1.40155	0.00157464
1.40881	0.00129168
1.41606	-0.00019656
1.42331	0.00088128
1.43056	0.0005508
1.43781	0.00019224
1.44506	0.0017118
1.45231	0.00158112
1.45956	0.00184032
1.4668	0.00150552
1.47405	-0.00525312
1.48129	0.00014904
1.48853	0.00115452
1.49578	-0.00032292
1.50301	0.00251208
1.51025	0.00221508
1.51749	0.00185652
1.52472	0.00148392
1.53196	0.00178416
1.53919	0.0010638
1.54643	0.00034128
1.55366	0.00092124
1.56089	0.00013392
1.56811	0.00058212
1.57534	0.00257256
1.58257	0.00153576
1.58979	0.00144072
1.59702	9.18e-05
1.60424	0.0010854
1.61146	0.00065232
1.61868	0.00084672
1.62589	0.00145044
1.63311	0.00089856
1.64033	0.00132192
1.64754	0.00082404
1.65475	0.0030132
1.66196	0.00176688
1.66917	0.00110052
1.67638	0.00134352
1.68359	-0.00053676
1.6908	0.00037584
1.698	0.0045252
1.7052	0.00259308
1.7124	0.0067608
1.7196	0.0140713
1.7268	0.010233
1.734	0.00631584
1.7412	0.0026568
1.74839	7.668e-05
1.75558	0.00793584
1.76278	0.00080784
1.76997	0.00069984
1.77716	-0.00156384
1.78434	0.00017172
1.79153	-0.00083592
1.79871	0.00012096
1.8059	-0.00026352
1.81308	-0.00100872
1.82026	-0.00284472
1.82743	-0.00111564
1.83461	-0.00030024
1.84179	-0.00586224
1.84896	-0.00122688
1.85613	-0.00110376
1.86331	-0.00339984
1.8645	-0.00414504