Folder: SAXS-material-data (part 2)

File: data-parchment-33iod.txt
MATERIAL INFORMATION
	Material = 33% iodine on King Arthur parchment
	Thickness = 0.006 mm
SAXS INSTRUMENT
	Source = Cu K-alpha
	Wavelength = 1.5418 A
	Sample-to-detector distance = 106 mm
	Exposure time = 500 s

===============================================================
q (A^-1)	I(q)
===============================================================
0.00203935	3.84759
0.00947059	-3.24016
0.0169018	0.487279
0.0243331	-1.34258
0.0317643	-9.72225
0.0391954	-0.419428
0.0466266	0.59146
0.0540577	0.303931
0.0614887	2.15174
0.0689197	1.82497
0.0763507	1.90271
0.0837816	1.29824
0.0912124	1.55838
0.0986431	0.682987
0.106074	0.748203
0.113504	0.403011
0.120935	0.627613
0.128365	0.831344
0.135796	0.588575
0.143226	0.542906
0.150656	0.713299
0.158086	0.68992
0.165515	0.600442
0.172945	0.656854
0.180374	0.281173
0.187804	0.335509
0.195233	0.124572
0.202662	0.219233
0.210091	0.0417307
0.21752	0.156684
0.224948	0.353545
0.232376	0.558133
0.239805	0.151446
0.247233	0.102277
0.25466	0.0776101
0.262088	-0.143193
0.269515	0.409457
0.276942	0.155548
0.284369	0.0960996
0.291796	0.136023
0.299222	-0.0167267
0.306648	0.267827
0.314074	-0.0782856
0.321499	0.198154
0.328925	0.430058
0.33635	0.138255
0.343775	-0.00535485
0.351199	0.223829
0.358623	0.306085
0.366047	-0.554209
0.373471	0.106152
0.380894	0.0397756
0.388317	0.155248
0.39574	0.11449
0.403162	-0.172215
0.410584	0.120208
0.418006	-0.025725
0.425427	-0.00641438
0.432848	0.0210388
0.440269	-0.141496
0.447689	-0.000126169
0.455108	-0.286565
0.462528	0.044756
0.469947	-0.0974204
0.477366	-0.0372591
0.484784	0.04134
0.492202	0.0119962
0.499619	-0.154887
0.507037	-0.0349905
0.514453	0.375974
0.521869	-0.0222582
0.529285	0.0161463
0.5367	-0.107994
0.544115	-0.0684781
0.55153	0.0911572
0.558944	-0.0957383
0.566357	-0.193745
0.57377	0.0167019
0.581183	-0.19141
0.588595	-0.0864482
0.596007	-0.058986
0.603418	0.0437382
0.610828	-0.00883975
0.618238	-0.0889062
0.625648	-0.0278213
0.633057	-0.472362
0.640466	-0.132366
0.647873	-0.0670406
0.655281	-0.0298751
0.662688	0.0303315
0.670094	-0.043686
0.6775	-0.0784841
0.684905	-0.158539
0.69231	0.145997
0.699714	0.212597
0.707118	0.0556548
0.714521	-0.463688
0.721923	-0.0514842
0.729325	0.0628304
0.736726	-0.0103986
0.744126	0.165114
0.751526	0.130059
0.758925	0.0867334
0.766324	0.0715077
0.773722	0.228361
0.781119	0.0122763
0.788516	-0.016173
0.795912	0.00995421
0.803308	0.0428527
0.810702	0.20446
0.818096	0.156808
0.82549	0.0207089
0.832882	0.0937811
0.840274	0.0378152
0.847666	0.133263
0.855056	0.130373
0.862446	0.177261
0.869835	0.076237
0.877224	-0.0476458
0.884612	0.222023
0.891999	0.333365
0.899385	0.170583
0.90677	0.0607258
0.914155	0.0741261
0.921539	0.120534
0.928922	0.262393
0.936305	0.168587
0.943686	0.161031
0.951067	0.183477
0.958447	0.203147
0.965827	-0.0423446
0.973205	0.169285
0.980583	0.342406
0.98796	0.401341
0.995336	0.366703
1.00271	0.521111
1.01008	0.398336
1.01746	0.340168
1.02483	0.434651
1.0322	0.459681
1.03957	0.397464
1.04694	0.443886
1.05431	0.415298
1.06168	0.612612
1.06905	0.455493
1.07642	0.298494
1.08378	0.557027
1.09115	0.433081
1.09851	0.446729
1.10587	0.877053
1.11324	0.450136
1.1206	0.523616
1.12796	0.453495
1.13532	0.515951
1.14267	0.528095
1.15003	0.314664
1.15739	0.227344
1.16474	0.282941
1.1721	0.367176
1.17945	0.421357
1.1868	0.440315
1.19416	0.349047
1.20151	0.271221
1.20886	0.321086
1.2162	0.304267
1.22355	0.346027
1.2309	0.16583
1.23824	0.221479
1.24559	0.226903
1.25293	0.163894
1.26027	0.101314
1.26762	0.158923
1.27496	0.177031
1.2823	0.148769
1.28963	0.149379
1.29697	0.186457
1.30431	0.139019
1.31164	0.0957623
1.31898	0.0147623
1.32631	0.090423
1.33364	0.139479
1.34097	0.20176
1.3483	0.175875
1.35563	0.174413
1.36295	0.290365
1.37028	0.212056
1.37761	0.320292
1.38493	0.345755
1.39225	0.336718
1.39957	0.343184
1.40689	0.250149
1.41421	0.265585
1.42153	0.487771
1.42885	0.451517
1.43616	0.368261
1.44348	0.362018
1.45079	0.544815
1.4581	0.385751
1.46541	0.503363
1.47272	0.493225
1.48003	0.490151
1.48734	0.637069
1.49464	0.485334
1.50195	0.619597
1.50925	0.61484
1.51655	0.565307
1.52386	0.66714
1.53116	0.758904
1.53845	0.806263
1.54575	0.890156
1.55305	0.907489
1.56034	0.986411
1.56763	1.14092
1.57492	1.13832
1.58222	1.14255
1.5895	1.1538
1.59679	1.01877
1.60408	1.09624
1.61136	0.953904
1.61865	0.968069
1.62593	0.45878
1.63321	0.685169
1.64049	0.733243
1.64777	0.537556
1.65505	0.693277
1.66232	0.416935
1.6696	0.381593
1.67687	0.320701
1.68414	0.297605
1.69141	0.281022
1.69868	0.406863
1.70595	0.287352
1.71321	0.271746
1.72048	0.237093
1.72774	0.138425
1.735	0.16056
1.74226	0.128561
1.74952	0.109716
1.75678	0.0534171
1.76404	0.0664276
1.77129	0.11855
1.77854	0.131286
1.78579	0.14764
1.79305	0.0498171
1.80029	0.210685
1.80754	-0.0455014
1.81479	-0.0485548
1.82203	0.204313
1.82927	0.091749
1.83651	0.153671
1.84375	-0.0411944
1.85099	0.092573
1.85823	0.160697
1.86546	0.187266
1.87269	0.147005
1.87752	-0.161104

File: data-parchment.txt
MATERIAL INFORMATION
	Material = King Arthur parchment
	Thickness = 0.006 mm
SAXS INSTRUMENT
	Source = Cu K-alpha
	Wavelength = 1.5418 A
	Sample-to-detector distance = 106 mm
	Exposure time = 500 s

===============================================================
q (A^-1)	I(q)
===============================================================
0.00203935	2.78927
0.00947059	1.09954
0.0169018	1.7398
0.0243331	-1.03549
0.0317643	-4.49621
0.0391954	-0.0814218
0.0466266	0.0822195
0.0540577	0.639211
0.0614887	1.20615
0.0689197	1.17209
0.0763507	0.734403
0.0837816	0.619006
0.0912124	1.04823
0.0986431	0.80191
0.106074	0.654405
0.113504	0.395574
0.120935	0.0701925
0.128365	0.341194
0.135796	0.653863
0.143226	0.132753
0.150656	0.649499
0.158086	0.188861
0.165515	0.4521
0.172945	0.347607
0.180374	0.359188
0.187804	-0.00646418
0.195233	0.226222
0.202662	0.365427
0.210091	-0.222972
0.21752	-0.0452929
0.224948	0.0952059
0.232376	0.19707
0.239805	-0.127801
0.247233	0.323924
0.25466	-0.133458
0.262088	-0.386077
0.269515	0.109301
0.276942	0.0662944
0.284369	-0.174966
0.291796	0.0104074
0.299222	0.065833
0.306648	0.2313
0.314074	0.0533636
0.321499	-0.0247316
0.328925	-0.186452
0.33635	-0.040086
0.343775	0.119022
0.351199	-0.0517824
0.358623	0.0377463
0.366047	0.0210632
0.373471	0.0768968
0.380894	-0.0803857
0.388317	0.032359
0.39574	-0.00203493
0.403162	-0.122381
0.410584	-0.14813
0.418006	-0.0867972
0.425427	-0.170211
0.432848	-0.176393
0.440269	-0.259839
0.447689	-0.165741
0.455108	-0.152189
0.462528	0.0782263
0.469947	-0.0857676
0.477366	-0.161966
0.484784	-0.0442769
0.492202	-0.156346
0.499619	-0.0741455
0.507037	-0.0497005
0.514453	0.369446
0.521869	-0.116966
0.529285	-0.0694706
0.5367	-0.123613
0.544115	-0.0759156
0.55153	-0.0671848
0.558944	0.0850004
0.566357	-0.0966401
0.57377	0.0419907
0.581183	-0.160667
0.588595	-0.211155
0.596007	-0.0718778
0.603418	-0.00915248
0.610828	-0.0117319
0.618238	-0.151797
0.625648	0.100192
0.633057	-0.0570854
0.640466	-0.226165
0.647873	-0.100841
0.655281	0.0254128
0.662688	-0.0589217
0.670094	-0.177483
0.6775	-0.0731948
0.684905	-0.238701
0.69231	-0.121433
0.699714	0.168796
0.707118	-0.105414
0.714521	0.00795113
0.721923	-0.0380132
0.729325	-0.0218775
0.736726	0.0694339
0.744126	-0.0105002
0.751526	-0.10828
0.758925	0.0356608
0.766324	-0.0850162
0.773722	0.0836554
0.781119	0.0666551
0.788516	-0.0690636
0.795912	0.0216071
0.803308	0.032688
0.810702	0.166115
0.818096	0.00664785
0.82549	-0.0467268
0.832882	0.062708
0.840274	-0.0759827
0.847666	0.120371
0.855056	0.00293909
0.862446	0.0298276
0.869835	-0.00574369
0.877224	-0.119627
0.884612	0.156406
0.891999	0.132297
0.899385	0.0886023
0.90677	-0.0421633
0.914155	0.085779
0.921539	0.0776427
0.928922	0.0840514
0.936305	0.133878
0.943686	0.177229
0.951067	0.107859
0.958447	0.126621
0.965827	0.128394
0.973205	0.131848
0.980583	0.234971
0.98796	0.352086
0.995336	0.27745
1.00271	0.358223
1.01008	0.264539
1.01746	0.364548
1.02483	0.356306
1.0322	0.370428
1.03957	0.433661
1.04694	0.356451
1.05431	0.358771
1.06168	0.463361
1.06905	0.319878
1.07642	0.242876
1.08378	0.405049
1.09115	0.325647
1.09851	0.426564
1.10587	0.356904
1.11324	0.40179
1.1206	0.536178
1.12796	0.357878
1.13532	0.471242
1.14267	0.412479
1.15003	0.349953
1.15739	0.358084
1.16474	0.343684
1.1721	0.246106
1.17945	0.333922
1.1868	0.354698
1.19416	0.231612
1.20151	0.321963
1.20886	0.189107
1.2162	0.386827
1.22355	0.160413
1.2309	0.177483
1.23824	0.216768
1.24559	0.223102
1.25293	0.13373
1.26027	0.159329
1.26762	0.146031
1.27496	0.179594
1.2823	0.153149
1.28963	0.0473988
1.29697	0.00175259
1.30431	0.250669
1.31164	0.242866
1.31898	0.0727773
1.32631	0.10753
1.33364	0.105679
1.34097	0.136143
1.3483	0.167528
1.35563	0.137886
1.36295	0.211112
1.37028	0.109167
1.37761	0.128314
1.38493	0.192867
1.39225	0.266556
1.39957	0.273021
1.40689	0.281801
1.41421	0.341781
1.42153	0.393063
1.42885	0.409535
1.43616	0.317188
1.44348	0.315491
1.45079	0.450108
1.4581	0.355587
1.46541	0.515016
1.47272	0.470334
1.48003	0.441805
1.48734	0.519634
1.49464	0.390626
1.50195	0.518526
1.50925	0.564677
1.51655	0.577869
1.52386	0.498798
1.53116	0.623288
1.53845	0.64883
1.54575	0.817266
1.55305	0.770964
1.56034	0.862613
1.56763	1.01349
1.57492	0.968161
1.58222	0.882392
1.5895	0.963637
1.59679	0.98861
1.60408	0.928803
1.61136	0.813744
1.61865	0.755183
1.62593	0.749515
1.63321	0.564099
1.64049	0.478541
1.64777	0.419213
1.65505	0.330396
1.66232	0.274956
1.6696	0.250522
1.67687	0.15145
1.68414	0.137445
1.69141	0.10359
1.69868	0.183069
1.70595	0.0971926
1.71321	0.187948
1.72048	0.102387
1.72774	0.0746255
1.735	0.0158536
1.74226	0.0483986
1.74952	-0.0031733
1.75678	0.00325358
1.76404	0.0453542
1.77129	-0.00797512
1.77854	-0.0897817
1.78579	-0.0525192
1.79305	-0.0967071
1.80029	-0.0721987
1.80754	-0.141118
1.81479	-0.181443
1.82203	-0.104934
1.82927	-0.0693202
1.83651	0.059872
1.84375	-0.223172
1.85099	0.395126
1.85823	0.145078
1.86546	-0.146525
1.87269	-0.127697
1.87752	-0.523985

File: data-PMMA.txt
MATERIAL INFORMATION
	Material = PMMA
	Thickness = 1 mm
SAXS INSTRUMENT
	Source = Cu K-alpha
	Wavelength = 1.5418 A
	Sample-to-detector distance = 106 mm
	Exposure time = 60 s

===============================================================
q (A^-1)	I(q)
===============================================================
-0.015857	0.092694
-0.0058281	0.071435
0.00420075	-0.026706
0.0142296	0.252017
0.0242583	-0.417019
0.034287	-0.442221
0.0443156	0.0286272
0.0543441	-0.0495508
0.0643725	0.00447242
0.0744007	-0.00383233
0.0844288	0.0120199
0.0944567	0.0149435
0.104485	0.0188204
0.114512	0.0207098
0.124539	0.0236099
0.134566	0.0150987
0.144593	0.0174516
0.15462	0.0132646
0.164647	0.0174115
0.174673	0.0151491
0.184698	0.0131947
0.194724	0.0158287
0.204749	0.0178971
0.214774	0.0173554
0.224798	0.0206177
0.234822	0.0202597
0.244846	0.030112
0.254869	0.0216569
0.264892	0.0217731
0.274914	0.0329555
0.284936	0.0304177
0.294958	0.0353487
0.304979	0.028291
0.314999	0.0228083
0.325019	0.0330386
0.335039	0.0339506
0.345058	0.0287258
0.355076	0.0416045
0.365094	0.040579
0.375111	0.0459655
0.385128	0.0445
0.395144	0.0348805
0.405159	0.038086
0.415174	0.048993
0.425188	0.0452858
0.435201	0.0461439
0.445214	0.0498431
0.455226	0.0568979
0.465237	0.0544973
0.475248	0.0648654
0.485258	0.0655332
0.495266	0.066746
0.505275	0.0683547
0.515282	0.0692536
0.525289	0.0741341
0.535294	0.079328
0.545299	0.0887374
0.555303	0.0880042
0.565307	0.0938823
0.575309	0.090573
0.58531	0.0944376
0.595311	0.10281
0.60531	0.10417
0.615309	0.114515
0.625306	0.108456
0.635303	0.122739
0.645299	0.124286
0.655293	0.11857
0.665287	0.126176
0.675279	0.134182
0.685271	0.148951
0.695261	0.146522
0.705251	0.153723
0.715239	0.161679
0.725226	0.164605
0.735212	0.172935
0.745197	0.180522
0.75518	0.185482
0.765163	0.197913
0.775144	0.201277
0.785124	0.208337
0.795103	0.218226
0.805081	0.23715
0.815057	0.246979
0.825032	0.256176
0.835006	0.268443
0.844979	0.275505
0.85495	0.295916
0.86492	0.286538
0.874888	0.303095
0.884855	0.316577
0.894821	0.342522
0.904785	0.347273
0.914748	0.338995
0.92471	0.346733
0.93467	0.349837
0.944629	0.351847
0.954586	0.350625
0.964542	0.351002
0.974496	0.352557
0.984449	0.356072
0.9944	0.356031
1.00435	0.358304
1.0143	0.34315
1.02424	0.343896
1.03419	0.339901
1.04413	0.335082
1.05407	0.325254
1.06401	0.312249
1.07395	0.312323
1.08389	0.313114
1.09383	0.307492
1.10376	0.30053
1.11369	0.298113
1.12362	0.290643
1.13355	0.287325
1.14348	0.284323
1.1534	0.266638
1.16332	0.267974
1.17324	0.258977
1.18316	0.247316
1.19308	0.249889
1.203	0.243737
1.21291	0.240043
1.22282	0.226329
1.23273	0.217681
1.24264	0.203319
1.25255	0.205549
1.26245	0.211794
1.27235	0.207831
1.28225	0.206733
1.29215	0.200635
1.30205	0.184607
1.31194	0.182879
1.32184	0.177119
1.33173	0.17651
1.34162	0.169772
1.3515	0.163691
1.36138	0.155011
1.37127	0.152453
1.38115	0.145967
1.39103	0.146156
1.4009	0.146858
1.41077	0.14048
1.42065	0.129739
1.43052	0.131224
1.44038	0.116034
1.45025	0.117499
1.46011	0.11715
1.46997	0.103174
1.47983	0.101028
1.48968	0.10136
1.49954	0.101193
1.50939	0.0985085
1.51924	0.0920728
1.52908	0.0921794
1.53893	0.0878742
1.54877	0.0841795
1.55861	0.0799987
1.56845	0.0771716
1.57828	0.0755989
1.58811	0.0729957
1.59794	0.0702653
1.60777	0.0680707
1.6176	0.0675655
1.62742	0.0651488
1.63724	0.0614306
1.64705	0.0617339
1.65687	0.058519
1.66668	0.0577398
1.67649	0.0605656
1.6863	0.0585208
1.6961	0.055152
1.70591	0.0502082
1.71571	0.0460672
1.7255	0.0458424
1.7353	0.0458675
1.74509	0.0478848
1.75488	0.0467023
1.76466	0.0490047
1.77445	0.0503776
1.78423	0.0527122
1.794	0.0483083
1.80378	0.0447995
1.81355	0.0382966
1.82332	0.0308941
1.83309	0.0300665

File: data-tangoblack.txt
MATERIAL INFORMATION
	Material = TangoBlack
	Thickness = 1 mm
SAXS INSTRUMENT
	Source = Cu K-alpha
	Wavelength = 1.5418 A
	Sample-to-detector distance = 106 mm
	Exposure time = 60 s

===============================================================
q (A^-1)	I(q)
===============================================================
-0.015857	0.121051
-0.0058281	0.0544706
0.00420075	-0.0227411
0.0142296	0.272107
0.0242583	-0.665197
0.034287	-0.696289
0.0443156	0.0703038
0.0543441	-0.0618389
0.0643725	0.0720718
0.0744007	0.0648215
0.0844288	0.0854928
0.0944567	0.0836273
0.104485	0.0851061
0.114512	0.075369
0.124539	0.0779403
0.134566	0.0646515
0.144593	0.0742654
0.15462	0.071008
0.164647	0.0769647
0.174673	0.0739628
0.184698	0.0817594
0.194724	0.0824909
0.204749	0.0818133
0.214774	0.0858223
0.224798	0.0988095
0.234822	0.0970652
0.244846	0.112796
0.254869	0.117536
0.264892	0.118955
0.274914	0.129519
0.284936	0.132274
0.294958	0.138341
0.304979	0.147029
0.314999	0.142856
0.325019	0.151457
0.335039	0.155772
0.345058	0.152491
0.355076	0.162866
0.365094	0.159147
0.375111	0.160789
0.385128	0.15459
0.395144	0.148518
0.405159	0.144126
0.415174	0.152036
0.425188	0.144082
0.435201	0.133004
0.445214	0.134753
0.455226	0.131862
0.465237	0.124408
0.475248	0.126008
0.485258	0.123938
0.495266	0.12176
0.505275	0.119638
0.515282	0.10694
0.525289	0.104586
0.535294	0.107702
0.545299	0.111339
0.555303	0.100627
0.565307	0.102033
0.575309	0.088349
0.58531	0.0934397
0.595311	0.0945638
0.60531	0.0910903
0.615309	0.088532
0.625306	0.0883007
0.635303	0.093
0.645299	0.0895818
0.655293	0.0813771
0.665287	0.0837213
0.675279	0.0854573
0.685271	0.0908522
0.695261	0.085317
0.705251	0.0885199
0.715239	0.0882093
0.725226	0.0848526
0.735212	0.0872952
0.745197	0.0886615
0.75518	0.0885629
0.765163	0.0918475
0.775144	0.0875585
0.785124	0.091657
0.795103	0.0892921
0.805081	0.0977303
0.815057	0.0968357
0.825032	0.0967824
0.835006	0.0986413
0.844979	0.104867
0.85495	0.101219
0.86492	0.0891961
0.874888	0.0997638
0.884855	0.107209
0.894821	0.117647
0.904785	0.120151
0.914748	0.112595
0.92471	0.116582
0.93467	0.117188
0.944629	0.122591
0.954586	0.122811
0.964542	0.124799
0.974496	0.130724
0.984449	0.138516
0.9944	0.141081
1.00435	0.152342
1.0143	0.144506
1.02424	0.149785
1.03419	0.154211
1.04413	0.160049
1.05407	0.158823
1.06401	0.15992
1.07395	0.164411
1.08389	0.175735
1.09383	0.180752
1.10376	0.187897
1.11369	0.191575
1.12362	0.196616
1.13355	0.200722
1.14348	0.209054
1.1534	0.206666
1.16332	0.212758
1.17324	0.2149
1.18316	0.21669
1.19308	0.228432
1.203	0.230576
1.21291	0.237773
1.22282	0.235804
1.23273	0.241349
1.24264	0.226999
1.25255	0.246207
1.26245	0.256778
1.27235	0.261877
1.28225	0.280434
1.29215	0.267929
1.30205	0.2628
1.31194	0.265044
1.32184	0.265854
1.33173	0.26946
1.34162	0.271854
1.3515	0.271553
1.36138	0.266745
1.37127	0.266193
1.38115	0.268957
1.39103	0.268141
1.4009	0.271296
1.41077	0.264289
1.42065	0.256851
1.43052	0.258849
1.44038	0.246758
1.45025	0.250166
1.46011	0.248837
1.46997	0.234355
1.47983	0.233875
1.48968	0.233159
1.49954	0.231617
1.50939	0.2255
1.51924	0.215881
1.52908	0.210154
1.53893	0.207803
1.54877	0.20158
1.55861	0.196771
1.56845	0.187908
1.57828	0.187703
1.58811	0.178713
1.59794	0.172866
1.60777	0.165342
1.6176	0.160822
1.62742	0.157357
1.63724	0.150733
1.64705	0.147587
1.65687	0.139134
1.66668	0.135853
1.67649	0.133553
1.6863	0.123969
1.6961	0.118853
1.70591	0.111789
1.71571	0.105764
1.7255	0.102687
1.7353	0.0982999
1.74509	0.0941714
1.75488	0.0920973
1.76466	0.0906185
1.77445	0.086559
1.78423	0.0879142
1.794	0.0779427
1.80378	0.0737256
1.81355	0.0639181
1.82332	0.0574768
1.83309	0.0481333

File: data-veroclear.txt
MATERIAL INFORMATION
	Material = VeroClear
	Thickness = 1 mm
SAXS INSTRUMENT
	Source = Cu K-alpha
	Wavelength = 1.5418 A
	Sample-to-detector distance = 106 mm
	Exposure time = 60 s

===============================================================
q (A^-1)	I(q)
===============================================================
-0.015857	0.153761
-0.0058281	0.0367362
0.00420075	-0.0200933
0.0142296	0.277447
0.0242583	-0.467105
0.034287	-0.499383
0.0443156	0.0266428
0.0543441	-0.0622308
0.0643725	0.0194665
0.0744007	0.00435895
0.0844288	0.0265258
0.0944567	0.0318523
0.104485	0.0345943
0.114512	0.0376819
0.124539	0.0402841
0.134566	0.0257435
0.144593	0.0376445
0.15462	0.0347064
0.164647	0.0406285
0.174673	0.038195
0.184698	0.0388464
0.194724	0.0402504
0.204749	0.045026
0.214774	0.0457015
0.224798	0.0503967
0.234822	0.0452519
0.244846	0.0572535
0.254869	0.0521396
0.264892	0.0486547
0.274914	0.0567622
0.284936	0.0552198
0.294958	0.0682597
0.304979	0.0639154
0.314999	0.0610766
0.325019	0.0694175
0.335039	0.0692897
0.345058	0.064363
0.355076	0.0793465
0.365094	0.0771735
0.375111	0.0793836
0.385128	0.0838904
0.395144	0.0680324
0.405159	0.0727785
0.415174	0.0785247
0.425188	0.0742025
0.435201	0.0714532
0.445214	0.0707778
0.455226	0.0736609
0.465237	0.0725917
0.475248	0.0764105
0.485258	0.0757659
0.495266	0.0729084
0.505275	0.0749229
0.515282	0.0633954
0.525289	0.0630644
0.535294	0.0672884
0.545299	0.0701485
0.555303	0.067545
0.565307	0.0638877
0.575309	0.0581692
0.58531	0.0591238
0.595311	0.0622972
0.60531	0.0594544
0.615309	0.059256
0.625306	0.0583383
0.635303	0.0633522
0.645299	0.0581787
0.655293	0.0536616
0.665287	0.0569815
0.675279	0.0596303
0.685271	0.066322
0.695261	0.0596512
0.705251	0.0632515
0.715239	0.0650071
0.725226	0.0609966
0.735212	0.0644959
0.745197	0.066377
0.75518	0.0678619
0.765163	0.071291
0.775144	0.0702802
0.785124	0.0718429
0.795103	0.0708522
0.805081	0.0802033
0.815057	0.0811314
0.825032	0.0852746
0.835006	0.0872521
0.844979	0.095233
0.85495	0.0989199
0.86492	0.0871323
0.874888	0.0981798
0.884855	0.108257
0.894821	0.121807
0.904785	0.124993
0.914748	0.119834
0.92471	0.132409
0.93467	0.136528
0.944629	0.140357
0.954586	0.144036
0.964542	0.149169
0.974496	0.161951
0.984449	0.173956
0.9944	0.183298
1.00435	0.199887
1.0143	0.192752
1.02424	0.203218
1.03419	0.20704
1.04413	0.225374
1.05407	0.227047
1.06401	0.234153
1.07395	0.246216
1.08389	0.255147
1.09383	0.274378
1.10376	0.28177
1.11369	0.290473
1.12362	0.297104
1.13355	0.308177
1.14348	0.318026
1.1534	0.317935
1.16332	0.326492
1.17324	0.331272
1.18316	0.333223
1.19308	0.340177
1.203	0.346236
1.21291	0.353782
1.22282	0.347912
1.23273	0.345806
1.24264	0.329181
1.25255	0.342867
1.26245	0.351236
1.27235	0.353416
1.28225	0.351837
1.29215	0.343634
1.30205	0.328906
1.31194	0.325896
1.32184	0.319553
1.33173	0.31516
1.34162	0.30806
1.3515	0.301592
1.36138	0.291422
1.37127	0.28525
1.38115	0.279507
1.39103	0.277946
1.4009	0.274951
1.41077	0.267921
1.42065	0.252139
1.43052	0.25098
1.44038	0.232246
1.45025	0.230598
1.46011	0.230199
1.46997	0.210789
1.47983	0.209322
1.48968	0.208772
1.49954	0.205828
1.50939	0.195992
1.51924	0.185873
1.52908	0.183234
1.53893	0.179183
1.54877	0.169395
1.55861	0.16905
1.56845	0.166477
1.57828	0.155889
1.58811	0.15099
1.59794	0.145616
1.60777	0.141653
1.6176	0.137356
1.62742	0.135092
1.63724	0.12833
1.64705	0.124906
1.65687	0.118895
1.66668	0.119631
1.67649	0.118767
1.6863	0.111206
1.6961	0.106024
1.70591	0.0983795
1.71571	0.0938265
1.7255	0.0901907
1.7353	0.0873818
1.74509	0.0849928
1.75488	0.0839181
1.76466	0.0833295
1.77445	0.0815514
1.78423	0.0807667
1.794	0.0737634
1.80378	0.0671226
1.81355	0.059339
1.82332	0.0517971
1.83309	0.0460053